onset	duration	trial_type	accuracy	response_time	prime_stim	target_stim
0.0	4.015	Etrue	1	0.979	3 x 5 =	15
4.015	4.416000000000001	Hfalse	0	1.145	7 x 6 =	48
8.431000000000001	4.014999999999999	Efalse	1	1.665	2 x 3 =	9
12.446	4.415000000000001	Etrue	1	0.725	3 x 2 =	6
16.861	4.014999999999997	Htrue	1	1.332	7 x 6 =	42
20.875999999999998	4.016000000000002	control	0	n/a	n/a	BLUEbox.bmp
24.892	4.014999999999997	control	1	1.611	n/a	BLUEbox.bmp
28.906999999999996	4.015000000000001	Hfalse	1	1.249	6 x 8 =	56
32.922	4.016000000000005	control	1	1.683	n/a	BLUEbox.bmp
36.938	4.814999999999998	Htrue	1	2.084	9 x 7 =	63
41.753	4.815000000000005	control	1	1.482	n/a	BLUEbox.bmp
46.568000000000005	4.414999999999999	Etrue	1	0.949	5 x 2 =	10
50.983000000000004	4.015000000000001	Efalse	1	1.873	2 x 5 =	15
54.998000000000005	4.015000000000001	Htrue	1	1.508	8 x 9 =	72
59.013000000000005	4.814999999999998	Htrue	1	1.562	8 x 7 =	56
63.828	4.015999999999991	Htrue	0	1.439	7 x 9 =	63
67.844	4.814999999999998	Htrue	1	1.213	9 x 6 =	54
72.65899999999999	4.814999999999998	control	1	1.473	n/a	BLUEbox.bmp
77.47399999999999	4.015000000000001	control	1	1.572	n/a	BLUEbox.bmp
81.48899999999999	4.415000000000006	Etrue	1	0.765	4 x 5 =	20
85.904	4.415000000000006	control	1	1.418	n/a	BLUEbox.bmp
90.319	4.015999999999991	Htrue	1	0.952	8 x 6 =	48
94.335	4.415000000000006	Htrue	1	1.226	9 x 6 =	54
98.75	4.015000000000001	Etrue	1	0.901	5 x 4 =	20
102.765	4.814999999999998	Etrue	1	0.755	2 x 4 =	8
107.58	4.415000000000006	control	1	1.573	n/a	BLUEbox.bmp
111.995	4.814999999999998	Etrue	1	0.756	3 x 2 =	6
116.81	4.814999999999998	Efalse	1	1.637	4 x 2 =	10
121.625	4.415000000000006	control	1	1.727	n/a	BLUEbox.bmp
126.04	4.416000000000011	control	1	1.636	n/a	BLUEbox.bmp
130.45600000000002	4.414999999999992	Etrue	1	1.702	3 x 4 =	12
134.871	4.814999999999998	Efalse	1	1.44	4 x 5 =	15
139.686	4.814999999999998	control	1	1.834	n/a	BLUEbox.bmp
144.501	4.014999999999986	Hfalse	1	1.113	8 x 6 =	54
148.516	4.4150000000000205	Htrue	1	1.932	9 x 7 =	63
152.931	4.414999999999992	Etrue	1	0.598	5 x 4 =	20
157.346	4.414999999999992	Htrue	1	0.895	9 x 8 =	72
161.761	4.814999999999998	Hfalse	1	1.418	6 x 7 =	49
166.576	4.416000000000025	Htrue	1	1.392	7 x 6 =	42
170.99200000000002	4.414999999999992	Efalse	1	1.671	4 x 3 =	9
175.407	4.414999999999992	Efalse	0	1.615	2 x 4 =	12
179.822	4.814999999999998	Etrue	1	0.846	4 x 2 =	8
184.637	4.4150000000000205	Hfalse	0	1.49	7 x 9 =	54
189.05200000000002	4.814999999999998	Hfalse	1	1.848	7 x 8 =	64
193.86700000000002	4.814999999999998	control	1	1.714	n/a	BLUEbox.bmp
198.68200000000002	4.814999999999998	Etrue	1	0.521	5 x 2 =	10
203.497	4.814999999999998	Htrue	1	1.721	6 x 9 =	54
208.312	4.4	Etrue	1	0.738	2 x 5 =	10
