onset	duration	trial_type	accuracy	response_time	prime_stim	target_stim
0.0	4.815	Efalse	1	0.69	6 - 5 =	2
4.815	4.015	Etrue	1	0.722	7 - 6 =	1
8.83	4.015999999999998	control	1	1.577	n/a	BLUEbox.bmp
12.845999999999998	4.015000000000002	Htrue	1	0.861	8 - 3 =	5
16.861	4.014999999999997	Hfalse	1	0.674	8 - 3 =	4
20.875999999999998	4.015000000000001	Htrue	1	0.663	6 - 2 =	4
24.891	4.015999999999998	Etrue	1	0.948	7 - 6 =	1
28.906999999999996	4.015000000000001	control	1	1.912	n/a	BLUEbox.bmp
32.922	4.015000000000001	Etrue	1	0.493	4 - 3 =	1
36.937	4.814999999999998	Htrue	1	0.546	8 - 3 =	5
41.751999999999995	4.016000000000005	control	1	1.416	n/a	BLUEbox.bmp
45.768	4.215000000000003	control	1	1.358	n/a	BLUEbox.bmp
49.983000000000004	4.015000000000001	Htrue	1	0.497	8 - 2 =	6
53.998000000000005	4.015000000000001	Efalse	1	0.821	5 - 4 =	2
58.013000000000005	4.814999999999998	Hfalse	1	0.646	9 - 3 =	5
62.828	4.814999999999998	Etrue	1	0.798	9 - 8 =	1
67.643	4.415999999999997	control	1	1.454	n/a	BLUEbox.bmp
72.059	4.015000000000001	Etrue	1	0.494	3 - 2 =	1
76.074	4.414999999999992	Etrue	1	0.541	8 - 5 =	3
80.48899999999999	4.015000000000001	Efalse	0	0.255	7 - 6 =	3
84.50399999999999	4.415000000000006	control	1	1.638	n/a	BLUEbox.bmp
88.919	4.016000000000005	Htrue	1	0.538	9 - 3 =	6
92.935	4.814999999999998	control	1	1.452	n/a	BLUEbox.bmp
97.75	4.415000000000006	Htrue	1	0.565	9 - 4 =	5
102.165	4.814999999999998	Efalse	1	0.61	6 - 4 =	1
106.98	4.414999999999992	Hfalse	1	0.763	6 - 2 =	5
111.395	4.415000000000006	Htrue	1	0.521	9 - 7 =	2
115.81	4.414999999999992	Htrue	1	0.579	9 - 3 =	6
120.225	4.815000000000012	Hfalse	1	0.619	9 - 2 =	8
125.04	4.416000000000011	Htrue	1	0.724	9 - 6 =	3
129.45600000000002	4.414999999999992	Etrue	1	0.626	5 - 3 =	2
133.871	4.814999999999998	Htrue	1	0.531	7 - 3 =	4
138.686	4.814999999999998	control	1	1.436	n/a	BLUEbox.bmp
143.501	4.814999999999998	control	1	1.429	n/a	BLUEbox.bmp
148.316	4.414999999999992	Etrue	1	0.519	6 - 4 =	2
152.731	4.814999999999998	Etrue	1	0.627	5 - 4 =	1
157.546	4.4150000000000205	control	1	1.45	n/a	BLUEbox.bmp
161.961	4.414999999999964	Hfalse	1	0.73	9 - 6 =	5
166.37599999999998	4.4150000000000205	control	1	1.398	n/a	BLUEbox.bmp
170.791	4.814999999999998	Etrue	1	0.614	7 - 5 =	2
175.606	4.616000000000014	Hfalse	1	0.711	7 - 4 =	2
180.222	4.814999999999998	Htrue	1	0.543	8 - 6 =	2
185.037	4.414999999999992	Efalse	1	0.607	7 - 5 =	1
189.452	4.4150000000000205	Efalse	0	0.628	9 - 8 =	3
193.86700000000002	4.814999999999998	Htrue	1	0.555	7 - 3 =	4
198.68200000000002	4.414999999999992	Etrue	1	0.896	9 - 8 =	1
203.097	4.814999999999998	control	1	1.435	n/a	BLUEbox.bmp
207.912	4.8	Etrue	1	0.617	7 - 5 =	2
